"trial_type","rt","stimulus","response","trial_index","plugin_version","time_elapsed","consent_response","consent_timestamp","task","phase","word_root","is_plural","suffix_shown","condition","subject_id","correct_word","foil_word","correct_index","correct","points_total","species","image","correct_species","is_novel","rep","dup_button_index","nup_button_index","correct_suffix","chosen_suffix","chose_nup","gulu_button_index","norl_button_index","chosen_species","chose_norl"
"html-button-response","8612","<div class=""consent-text"" style=""max-height: 60vh; overflow-y: auto; padding-right: 8px;""> <h2>Consent Agreement</h2>
    <p> Please read this consent agreement carefully before deciding whether to participate in this experiment. </p> 
    <p> <strong>Description:</strong> You are invited to participate in a research study about language and language learning. The purpose of the research is to understand how people learn new words. This research will be conducted through the Prolific platform, including participants from the US, UK, and Canada. If you decide to participate in this research, you will learn and use new words. </p> 
    <p> <strong>Time Involvement:</strong> The task will last the amount of time advertised on Prolific. You are free to withdraw from the study at any time. </p> 
    <p> <strong>Risks and Benefits:</strong> Study data will be stored securely, in compliance with Stanford University standards, minimizing the risk of confidentiality breach. This study advances our scientific understanding of how people learn new languages. We cannot and do not guarantee or promise that you will receive any benefits from this study. </p> 
    <p> <strong>Compensation:</strong> You will receive payment in the amount advertised on Prolific. If you do not complete this study, you will receive prorated payment based on the time that you have spent. Additionally, you may be eligible for bonus payments as described in the instructions. </p> 
    <p> <strong>Participant's Rights:</strong> If you have read this form and have decided to participate in this project, please understand your participation is voluntary and you have the right to withdraw your consent or discontinue participation at any time without penalty or loss of benefits to which you are otherwise entitled. The alternative is not to participate. You have the right to refuse to answer particular questions. The results of this research study may be presented at scientific or professional meetings or published in scientific journals. Your individual privacy will be maintained in all published and written data resulting from the study. In accordance with scientific norms, the data from this study may be used or shared with other researchers for future research (after removing personally identifying information) without additional consent from you. </p> 
    <p> <strong>Contact Information:</strong> If you have any questions, concerns or complaints about this research, its procedures, risks and benefits, contact the Protocol Director, Robert Hawkins (<a href=""mailto:rdhawkins@stanford.edu"">rdhawkins@stanford.edu</a>, 217-549-6923). </p> 
    <p> <strong>Independant Contact:</strong> If you are not satisfied with how this study is being conducted, or if you have any concerns, complaints, or general questions about the research or your rights as a participant, please contact the Stanford Institutional Review Board (IRB) to speak to someone independent of the research team at 650-723-2480 or toll free at 1-866-680-2906, or email at irbnonmed@stanford.edu. You can also write to the Stanford IRB, Stanford University, 1705 El Camino Real, Palo Alto, CA 94306. Please save or print a copy of this page for your records. </p> 
    <p> <strong>If you agree to participate in this research, please click ""I agree""</strong> </p></br> </div>","0","0","2.1.0","8617","agree","2026-05-19T06:15:17.716Z","","","","","","","","","","","","","","","","","","","","","","","","","",""
"html-button-response","15474","
    <div class=""instr-box"">
      <h1>Alien Language Study</h1>
      <p>Welcome, and thank you for taking part in this study.</p>
      <p>In this experiment, you will learn a short <strong>alien language</strong>. You will first practise the words, then learn how different alien species use them.</p>
      <p>The study takes about <strong>40–50 minutes</strong>. Please make sure you are in a quiet place and will not be interrupted.</p>
      <p>Click <strong>Continue</strong> when you are ready to begin.</p>
    </div>","0","1","2.1.0","24094","","","","","","","","","","","","","","","","","","","","","","","","","","","",""
"html-button-response","160480","
    <div class=""instr-box"">
      <h2>Part 1: Learning the language</h2>
      <p>You will see alien words paired with pictures of objects.</p>
      <ul>
        <li>First, <strong>memorise</strong> each word and its meaning.</li>
        <li>Then you will be tested with <strong>multiple-choice questions</strong>. Choose the correct word for each picture.</li>
        <li>You will receive feedback after each answer.</li>
      </ul>
      <p>Click <strong>Start</strong> to begin.</p>
    </div>","0","2","2.1.0","184578","","","","","","","","","","","","","","","","","","","","","","","","","","","",""
"html-button-response","5127","
      <div class=""trial-box"">
        <div class=""word-display"">takolesdup</div>
        <img src=""images/takoles_plur.png"" class=""stim-image"" alt=""takoles_plur.png"">
      </div>","0","3","2.1.0","189708","","","passive_exposure","stage1","takoles","true","dup","NoExposure","nm7eewa7kq","","","","","","","","","","","","","","","","","","",""
"html-button-response","2966","
      <div class=""trial-box"">
        <div class=""word-display"">hiwen</div>
        <img src=""images/hiwen_sing.png"" class=""stim-image"" alt=""hiwen_sing.png"">
      </div>","0","4","2.1.0","192675","","","passive_exposure","stage1","hiwen","false","null","NoExposure","nm7eewa7kq","","","","","","","","","","","","","","","","","","",""
"html-button-response","7305","
      <div class=""trial-box"">
        <div class=""word-display"">neseldup</div>
        <img src=""images/nesel_plur.png"" class=""stim-image"" alt=""nesel_plur.png"">
      </div>","0","5","2.1.0","199980","","","passive_exposure","stage1","nesel","true","dup","NoExposure","nm7eewa7kq","","","","","","","","","","","","","","","","","","",""
"html-button-response","3958","
      <div class=""trial-box"">
        <div class=""word-display"">maqub</div>
        <img src=""images/maqub_sing.png"" class=""stim-image"" alt=""maqub_sing.png"">
      </div>","0","6","2.1.0","203939","","","passive_exposure","stage1","maqub","false","null","NoExposure","nm7eewa7kq","","","","","","","","","","","","","","","","","","",""
"html-button-response","2758","
      <div class=""trial-box"">
        <img src=""images/takoles_plur.png"" class=""stim-image"" alt=""takoles_plur.png"">
        <p class=""instr-text"">Which word matches this picture?</p>
      </div>","0","7","2.1.0","206699","","","forced_choice","stage1","takoles","true","","NoExposure","nm7eewa7kq","takolesdup","katolesdup","0","true","1","","","","","","","","","","","","","",""
"html-button-response","1264","
        <div class=""trial-box feedback-box feedback-correct"">
          <p>✓ Correct!</p>
          <p>The correct answer was: <strong>takolesdup</strong></p>
        </div>","0","8","2.1.0","207964","","","feedback","stage1","","","","NoExposure","nm7eewa7kq","","","","","","","","","","","","","","","","","","",""
"html-button-response","2447","
      <div class=""trial-box"">
        <img src=""images/hiwen_sing.png"" class=""stim-image"" alt=""hiwen_sing.png"">
        <p class=""instr-text"">Which word matches this picture?</p>
      </div>","1","9","2.1.0","210412","","","forced_choice","stage1","hiwen","false","","NoExposure","nm7eewa7kq","hiwen","wihen","1","true","2","","","","","","","","","","","","","",""
"html-button-response","1070","
        <div class=""trial-box feedback-box feedback-correct"">
          <p>✓ Correct!</p>
          <p>The correct answer was: <strong>hiwen</strong></p>
        </div>","0","10","2.1.0","211483","","","feedback","stage1","","","","NoExposure","nm7eewa7kq","","","","","","","","","","","","","","","","","","",""
"html-button-response","10545","
      <div class=""trial-box"">
        <img src=""images/nesel_plur.png"" class=""stim-image"" alt=""nesel_plur.png"">
        <p class=""instr-text"">Which word matches this picture?</p>
      </div>","1","11","2.1.0","222029","","","forced_choice","stage1","nesel","true","","NoExposure","nm7eewa7kq","neseldup","nelesdup","0","false","2","","","","","","","","","","","","","",""
"html-button-response","1269","
        <div class=""trial-box feedback-box feedback-incorrect"">
          <p>✗ Incorrect</p>
          <p>The correct answer was: <strong>neseldup</strong></p>
        </div>","0","12","2.1.0","223299","","","feedback","stage1","","","","NoExposure","nm7eewa7kq","","","","","","","","","","","","","","","","","","",""
"html-button-response","4520","
      <div class=""trial-box"">
        <img src=""images/maqub_sing.png"" class=""stim-image"" alt=""maqub_sing.png"">
        <p class=""instr-text"">Which word matches this picture?</p>
      </div>","1","13","2.1.0","227819","","","forced_choice","stage1","maqub","false","","NoExposure","nm7eewa7kq","maqub","mabuq","1","true","3","","","","","","","","","","","","","",""
"html-button-response","888","
        <div class=""trial-box feedback-box feedback-correct"">
          <p>✓ Correct!</p>
          <p>The correct answer was: <strong>maqub</strong></p>
        </div>","0","14","2.1.0","228707","","","feedback","stage1","","","","NoExposure","nm7eewa7kq","","","","","","","","","","","","","","","","","","",""
"html-button-response","6903","
      <div class=""trial-box"">
        <div class=""word-display"">wukindup</div>
        <img src=""images/wukin_plur.png"" class=""stim-image"" alt=""wukin_plur.png"">
      </div>","0","15","2.1.0","235610","","","passive_exposure","stage1","wukin","true","dup","NoExposure","nm7eewa7kq","","","","","","","","","","","","","","","","","","",""
"html-button-response","2136","
      <div class=""trial-box"">
        <div class=""word-display"">laniz</div>
        <img src=""images/laniz_sing.png"" class=""stim-image"" alt=""laniz_sing.png"">
      </div>","0","16","2.1.0","237746","","","passive_exposure","stage1","laniz","false","null","NoExposure","nm7eewa7kq","","","","","","","","","","","","","","","","","","",""
"html-button-response","1991","
      <div class=""trial-box"">
        <div class=""word-display"">nesel</div>
        <img src=""images/nesel_sing.png"" class=""stim-image"" alt=""nesel_sing.png"">
      </div>","0","17","2.1.0","239738","","","passive_exposure","stage1","nesel","false","null","NoExposure","nm7eewa7kq","","","","","","","","","","","","","","","","","","",""
"html-button-response","1704","
      <div class=""trial-box"">
        <div class=""word-display"">wumosdup</div>
        <img src=""images/wumos_plur.png"" class=""stim-image"" alt=""wumos_plur.png"">
      </div>","0","18","2.1.0","241443","","","passive_exposure","stage1","wumos","true","dup","NoExposure","nm7eewa7kq","","","","","","","","","","","","","","","","","","",""
"html-button-response","7824","
      <div class=""trial-box"">
        <img src=""images/laniz_sing.png"" class=""stim-image"" alt=""laniz_sing.png"">
        <p class=""instr-text"">Which word matches this picture?</p>
      </div>","0","19","2.1.0","249270","","","forced_choice","stage1","laniz","false","","NoExposure","nm7eewa7kq","laniz","lazin","0","true","4","","","","","","","","","","","","","",""
"html-button-response","974","
        <div class=""trial-box feedback-box feedback-correct"">
          <p>✓ Correct!</p>
          <p>The correct answer was: <strong>laniz</strong></p>
        </div>","0","20","2.1.0","250245","","","feedback","stage1","","","","NoExposure","nm7eewa7kq","","","","","","","","","","","","","","","","","","",""
"html-button-response","21143","
      <div class=""trial-box"">
        <img src=""images/wumos_plur.png"" class=""stim-image"" alt=""wumos_plur.png"">
        <p class=""instr-text"">Which word matches this picture?</p>
      </div>","0","21","2.1.0","271389","","","forced_choice","stage1","wumos","true","","NoExposure","nm7eewa7kq","wumosdup","womusdup","1","false","4","","","","","","","","","","","","","",""
"html-button-response","942","
        <div class=""trial-box feedback-box feedback-incorrect"">
          <p>✗ Incorrect</p>
          <p>The correct answer was: <strong>wumosdup</strong></p>
        </div>","0","22","2.1.0","272332","","","feedback","stage1","","","","NoExposure","nm7eewa7kq","","","","","","","","","","","","","","","","","","",""
"html-button-response","3849","
      <div class=""trial-box"">
        <img src=""images/wukin_plur.png"" class=""stim-image"" alt=""wukin_plur.png"">
        <p class=""instr-text"">Which word matches this picture?</p>
      </div>","0","23","2.1.0","276181","","","forced_choice","stage1","wukin","true","","NoExposure","nm7eewa7kq","wukindup","wikundup","0","true","5","","","","","","","","","","","","","",""
"html-button-response","1015","
        <div class=""trial-box feedback-box feedback-correct"">
          <p>✓ Correct!</p>
          <p>The correct answer was: <strong>wukindup</strong></p>
        </div>","0","24","2.1.0","277197","","","feedback","stage1","","","","NoExposure","nm7eewa7kq","","","","","","","","","","","","","","","","","","",""
"html-button-response","3638","
      <div class=""trial-box"">
        <img src=""images/nesel_sing.png"" class=""stim-image"" alt=""nesel_sing.png"">
        <p class=""instr-text"">Which word matches this picture?</p>
      </div>","1","25","2.1.0","280836","","","forced_choice","stage1","nesel","false","","NoExposure","nm7eewa7kq","nesel","neles","1","true","6","","","","","","","","","","","","","",""
"html-button-response","872","
        <div class=""trial-box feedback-box feedback-correct"">
          <p>✓ Correct!</p>
          <p>The correct answer was: <strong>nesel</strong></p>
        </div>","0","26","2.1.0","281708","","","feedback","stage1","","","","NoExposure","nm7eewa7kq","","","","","","","","","","","","","","","","","","",""
"html-button-response","5695","
      <div class=""trial-box"">
        <div class=""word-display"">sehiloddup</div>
        <img src=""images/sehilod_plur.png"" class=""stim-image"" alt=""sehilod_plur.png"">
      </div>","0","27","2.1.0","287404","","","passive_exposure","stage1","sehilod","true","dup","NoExposure","nm7eewa7kq","","","","","","","","","","","","","","","","","","",""
"html-button-response","2504","
      <div class=""trial-box"">
        <div class=""word-display"">lanizdup</div>
        <img src=""images/laniz_plur.png"" class=""stim-image"" alt=""laniz_plur.png"">
      </div>","0","28","2.1.0","289909","","","passive_exposure","stage1","laniz","true","dup","NoExposure","nm7eewa7kq","","","","","","","","","","","","","","","","","","",""
"html-button-response","1743","
      <div class=""trial-box"">
        <div class=""word-display"">falon</div>
        <img src=""images/falon_sing.png"" class=""stim-image"" alt=""falon_sing.png"">
      </div>","0","29","2.1.0","291652","","","passive_exposure","stage1","falon","false","null","NoExposure","nm7eewa7kq","","","","","","","","","","","","","","","","","","",""
"html-button-response","2034","
      <div class=""trial-box"">
        <div class=""word-display"">wukin</div>
        <img src=""images/wukin_sing.png"" class=""stim-image"" alt=""wukin_sing.png"">
      </div>","0","30","2.1.0","293687","","","passive_exposure","stage1","wukin","false","null","NoExposure","nm7eewa7kq","","","","","","","","","","","","","","","","","","",""
"html-button-response","6334","
      <div class=""trial-box"">
        <img src=""images/sehilod_plur.png"" class=""stim-image"" alt=""sehilod_plur.png"">
        <p class=""instr-text"">Which word matches this picture?</p>
      </div>","1","31","2.1.0","300023","","","forced_choice","stage1","sehilod","true","","NoExposure","nm7eewa7kq","sehiloddup","siheloddup","1","true","7","","","","","","","","","","","","","",""
"html-button-response","965","
        <div class=""trial-box feedback-box feedback-correct"">
          <p>✓ Correct!</p>
          <p>The correct answer was: <strong>sehiloddup</strong></p>
        </div>","0","32","2.1.0","300988","","","feedback","stage1","","","","NoExposure","nm7eewa7kq","","","","","","","","","","","","","","","","","","",""
"html-button-response","3904","
      <div class=""trial-box"">
        <img src=""images/wukin_sing.png"" class=""stim-image"" alt=""wukin_sing.png"">
        <p class=""instr-text"">Which word matches this picture?</p>
      </div>","0","33","2.1.0","304893","","","forced_choice","stage1","wukin","false","","NoExposure","nm7eewa7kq","wukin","wikun","0","true","8","","","","","","","","","","","","","",""
"html-button-response","1007","
        <div class=""trial-box feedback-box feedback-correct"">
          <p>✓ Correct!</p>
          <p>The correct answer was: <strong>wukin</strong></p>
        </div>","0","34","2.1.0","305900","","","feedback","stage1","","","","NoExposure","nm7eewa7kq","","","","","","","","","","","","","","","","","","",""
"html-button-response","9968","
      <div class=""trial-box"">
        <img src=""images/falon_sing.png"" class=""stim-image"" alt=""falon_sing.png"">
        <p class=""instr-text"">Which word matches this picture?</p>
      </div>","1","35","2.1.0","315870","","","forced_choice","stage1","falon","false","","NoExposure","nm7eewa7kq","falon","folan","1","true","9","","","","","","","","","","","","","",""
"html-button-response","null","
        <div class=""trial-box feedback-box feedback-correct"">
          <p>✓ Correct!</p>
          <p>The correct answer was: <strong>falon</strong></p>
        </div>","null","36","2.1.0","317887","","","feedback","stage1","","","","NoExposure","nm7eewa7kq","","","","","","","","","","","","","","","","","","",""
"html-button-response","2736","
      <div class=""trial-box"">
        <img src=""images/laniz_plur.png"" class=""stim-image"" alt=""laniz_plur.png"">
        <p class=""instr-text"">Which word matches this picture?</p>
      </div>","1","37","2.1.0","320624","","","forced_choice","stage1","laniz","true","","NoExposure","nm7eewa7kq","lanizdup","lazindup","1","true","10","","","","","","","","","","","","","",""
"html-button-response","941","
        <div class=""trial-box feedback-box feedback-correct"">
          <p>✓ Correct!</p>
          <p>The correct answer was: <strong>lanizdup</strong></p>
        </div>","0","38","2.1.0","321566","","","feedback","stage1","","","","NoExposure","nm7eewa7kq","","","","","","","","","","","","","","","","","","",""
"html-button-response","2606","
      <div class=""trial-box"">
        <div class=""word-display"">maqubdup</div>
        <img src=""images/maqub_plur.png"" class=""stim-image"" alt=""maqub_plur.png"">
      </div>","0","39","2.1.0","324174","","","passive_exposure","stage1","maqub","true","dup","NoExposure","nm7eewa7kq","","","","","","","","","","","","","","","","","","",""
"html-button-response","5657","
      <div class=""trial-box"">
        <div class=""word-display"">takoles</div>
        <img src=""images/takoles_sing.png"" class=""stim-image"" alt=""takoles_sing.png"">
      </div>","0","40","2.1.0","329832","","","passive_exposure","stage1","takoles","false","null","NoExposure","nm7eewa7kq","","","","","","","","","","","","","","","","","","",""
"html-button-response","2541","
      <div class=""trial-box"">
        <div class=""word-display"">nuwik</div>
        <img src=""images/nuwik_sing.png"" class=""stim-image"" alt=""nuwik_sing.png"">
      </div>","0","41","2.1.0","332374","","","passive_exposure","stage1","nuwik","false","null","NoExposure","nm7eewa7kq","","","","","","","","","","","","","","","","","","",""
"html-button-response","2600","
      <div class=""trial-box"">
        <div class=""word-display"">gequzisdup</div>
        <img src=""images/gequzis_plur.png"" class=""stim-image"" alt=""gequzis_plur.png"">
      </div>","0","42","2.1.0","334974","","","passive_exposure","stage1","gequzis","true","dup","NoExposure","nm7eewa7kq","","","","","","","","","","","","","","","","","","",""
"html-button-response","5574","
      <div class=""trial-box"">
        <img src=""images/nuwik_sing.png"" class=""stim-image"" alt=""nuwik_sing.png"">
        <p class=""instr-text"">Which word matches this picture?</p>
      </div>","1","43","2.1.0","340549","","","forced_choice","stage1","nuwik","false","","NoExposure","nm7eewa7kq","nuwik","niwuk","1","true","11","","","","","","","","","","","","","",""
"html-button-response","863","
        <div class=""trial-box feedback-box feedback-correct"">
          <p>✓ Correct!</p>
          <p>The correct answer was: <strong>nuwik</strong></p>
        </div>","0","44","2.1.0","341414","","","feedback","stage1","","","","NoExposure","nm7eewa7kq","","","","","","","","","","","","","","","","","","",""
"html-button-response","3449","
      <div class=""trial-box"">
        <img src=""images/takoles_sing.png"" class=""stim-image"" alt=""takoles_sing.png"">
        <p class=""instr-text"">Which word matches this picture?</p>
      </div>","1","45","2.1.0","344863","","","forced_choice","stage1","takoles","false","","NoExposure","nm7eewa7kq","takoles","katoles","1","true","12","","","","","","","","","","","","","",""
"html-button-response","1973","
        <div class=""trial-box feedback-box feedback-correct"">
          <p>✓ Correct!</p>
          <p>The correct answer was: <strong>takoles</strong></p>
        </div>","0","46","2.1.0","346837","","","feedback","stage1","","","","NoExposure","nm7eewa7kq","","","","","","","","","","","","","","","","","","",""
"html-button-response","9744","
      <div class=""trial-box"">
        <img src=""images/maqub_plur.png"" class=""stim-image"" alt=""maqub_plur.png"">
        <p class=""instr-text"">Which word matches this picture?</p>
      </div>","1","47","2.1.0","356582","","","forced_choice","stage1","maqub","true","","NoExposure","nm7eewa7kq","maqubdup","mabuqdup","1","true","13","","","","","","","","","","","","","",""
"html-button-response","1015","
        <div class=""trial-box feedback-box feedback-correct"">
          <p>✓ Correct!</p>
          <p>The correct answer was: <strong>maqubdup</strong></p>
        </div>","0","48","2.1.0","357598","","","feedback","stage1","","","","NoExposure","nm7eewa7kq","","","","","","","","","","","","","","","","","","",""
"html-button-response","10822","
      <div class=""trial-box"">
        <img src=""images/gequzis_plur.png"" class=""stim-image"" alt=""gequzis_plur.png"">
        <p class=""instr-text"">Which word matches this picture?</p>
      </div>","1","49","2.1.0","368421","","","forced_choice","stage1","gequzis","true","","NoExposure","nm7eewa7kq","gequzisdup","gequsizdup","1","true","14","","","","","","","","","","","","","",""
"html-button-response","728","
        <div class=""trial-box feedback-box feedback-correct"">
          <p>✓ Correct!</p>
          <p>The correct answer was: <strong>gequzisdup</strong></p>
        </div>","0","50","2.1.0","369150","","","feedback","stage1","","","","NoExposure","nm7eewa7kq","","","","","","","","","","","","","","","","","","",""
"html-button-response","7910","
      <div class=""trial-box"">
        <div class=""word-display"">jemulokdup</div>
        <img src=""images/jemulok_plur.png"" class=""stim-image"" alt=""jemulok_plur.png"">
      </div>","0","51","2.1.0","377063","","","passive_exposure","stage1","jemulok","true","dup","NoExposure","nm7eewa7kq","","","","","","","","","","","","","","","","","","",""
"html-button-response","2762","
      <div class=""trial-box"">
        <div class=""word-display"">firot</div>
        <img src=""images/firot_sing.png"" class=""stim-image"" alt=""firot_sing.png"">
      </div>","0","52","2.1.0","379825","","","passive_exposure","stage1","firot","false","null","NoExposure","nm7eewa7kq","","","","","","","","","","","","","","","","","","",""
"html-button-response","2661","
      <div class=""trial-box"">
        <div class=""word-display"">wumos</div>
        <img src=""images/wumos_sing.png"" class=""stim-image"" alt=""wumos_sing.png"">
      </div>","0","53","2.1.0","382487","","","passive_exposure","stage1","wumos","false","null","NoExposure","nm7eewa7kq","","","","","","","","","","","","","","","","","","",""
"html-button-response","950","
      <div class=""trial-box"">
        <div class=""word-display"">tugandup</div>
        <img src=""images/tugan_plur.png"" class=""stim-image"" alt=""tugan_plur.png"">
      </div>","0","54","2.1.0","383438","","","passive_exposure","stage1","tugan","true","dup","NoExposure","nm7eewa7kq","","","","","","","","","","","","","","","","","","",""
"html-button-response","2424","
      <div class=""trial-box"">
        <img src=""images/wumos_sing.png"" class=""stim-image"" alt=""wumos_sing.png"">
        <p class=""instr-text"">Which word matches this picture?</p>
      </div>","1","55","2.1.0","385863","","","forced_choice","stage1","wumos","false","","NoExposure","nm7eewa7kq","wumos","womus","1","true","15","","","","","","","","","","","","","",""
"html-button-response","759","
        <div class=""trial-box feedback-box feedback-correct"">
          <p>✓ Correct!</p>
          <p>The correct answer was: <strong>wumos</strong></p>
        </div>","0","56","2.1.0","386623","","","feedback","stage1","","","","NoExposure","nm7eewa7kq","","","","","","","","","","","","","","","","","","",""
"html-button-response","3783","
      <div class=""trial-box"">
        <img src=""images/firot_sing.png"" class=""stim-image"" alt=""firot_sing.png"">
        <p class=""instr-text"">Which word matches this picture?</p>
      </div>","0","57","2.1.0","390407","","","forced_choice","stage1","firot","false","","NoExposure","nm7eewa7kq","firot","fitor","0","true","16","","","","","","","","","","","","","",""
"html-button-response","720","
        <div class=""trial-box feedback-box feedback-correct"">
          <p>✓ Correct!</p>
          <p>The correct answer was: <strong>firot</strong></p>
        </div>","0","58","2.1.0","391127","","","feedback","stage1","","","","NoExposure","nm7eewa7kq","","","","","","","","","","","","","","","","","","",""
"html-button-response","4967","
      <div class=""trial-box"">
        <img src=""images/jemulok_plur.png"" class=""stim-image"" alt=""jemulok_plur.png"">
        <p class=""instr-text"">Which word matches this picture?</p>
      </div>","0","59","2.1.0","396095","","","forced_choice","stage1","jemulok","true","","NoExposure","nm7eewa7kq","jemulokdup","jelumokdup","0","true","17","","","","","","","","","","","","","",""
"html-button-response","681","
        <div class=""trial-box feedback-box feedback-correct"">
          <p>✓ Correct!</p>
          <p>The correct answer was: <strong>jemulokdup</strong></p>
        </div>","0","60","2.1.0","396777","","","feedback","stage1","","","","NoExposure","nm7eewa7kq","","","","","","","","","","","","","","","","","","",""
"html-button-response","7141","
      <div class=""trial-box"">
        <img src=""images/tugan_plur.png"" class=""stim-image"" alt=""tugan_plur.png"">
        <p class=""instr-text"">Which word matches this picture?</p>
      </div>","0","61","2.1.0","403919","","","forced_choice","stage1","tugan","true","","NoExposure","nm7eewa7kq","tugandup","tagundup","0","true","18","","","","","","","","","","","","","",""
"html-button-response","807","
        <div class=""trial-box feedback-box feedback-correct"">
          <p>✓ Correct!</p>
          <p>The correct answer was: <strong>tugandup</strong></p>
        </div>","0","62","2.1.0","404727","","","feedback","stage1","","","","NoExposure","nm7eewa7kq","","","","","","","","","","","","","","","","","","",""
"html-button-response","3240","
      <div class=""trial-box"">
        <div class=""word-display"">tugan</div>
        <img src=""images/tugan_sing.png"" class=""stim-image"" alt=""tugan_sing.png"">
      </div>","0","63","2.1.0","407969","","","passive_exposure","stage1","tugan","false","null","NoExposure","nm7eewa7kq","","","","","","","","","","","","","","","","","","",""
"html-button-response","1973","
      <div class=""trial-box"">
        <div class=""word-display"">jemulok</div>
        <img src=""images/jemulok_sing.png"" class=""stim-image"" alt=""jemulok_sing.png"">
      </div>","0","64","2.1.0","409943","","","passive_exposure","stage1","jemulok","false","null","NoExposure","nm7eewa7kq","","","","","","","","","","","","","","","","","","",""
"html-button-response","1671","
      <div class=""trial-box"">
        <div class=""word-display"">firotdup</div>
        <img src=""images/firot_plur.png"" class=""stim-image"" alt=""firot_plur.png"">
      </div>","0","65","2.1.0","411615","","","passive_exposure","stage1","firot","true","dup","NoExposure","nm7eewa7kq","","","","","","","","","","","","","","","","","","",""
"html-button-response","1295","
      <div class=""trial-box"">
        <div class=""word-display"">hiwendup</div>
        <img src=""images/hiwen_plur.png"" class=""stim-image"" alt=""hiwen_plur.png"">
      </div>","0","66","2.1.0","412911","","","passive_exposure","stage1","hiwen","true","dup","NoExposure","nm7eewa7kq","","","","","","","","","","","","","","","","","","",""
"html-button-response","2975","
      <div class=""trial-box"">
        <img src=""images/firot_plur.png"" class=""stim-image"" alt=""firot_plur.png"">
        <p class=""instr-text"">Which word matches this picture?</p>
      </div>","0","67","2.1.0","415887","","","forced_choice","stage1","firot","true","","NoExposure","nm7eewa7kq","firotdup","fitordup","0","true","19","","","","","","","","","","","","","",""
"html-button-response","687","
        <div class=""trial-box feedback-box feedback-correct"">
          <p>✓ Correct!</p>
          <p>The correct answer was: <strong>firotdup</strong></p>
        </div>","0","68","2.1.0","416575","","","feedback","stage1","","","","NoExposure","nm7eewa7kq","","","","","","","","","","","","","","","","","","",""
"html-button-response","3752","
      <div class=""trial-box"">
        <img src=""images/hiwen_plur.png"" class=""stim-image"" alt=""hiwen_plur.png"">
        <p class=""instr-text"">Which word matches this picture?</p>
      </div>","1","69","2.1.0","420327","","","forced_choice","stage1","hiwen","true","","NoExposure","nm7eewa7kq","hiwendup","wihendup","1","true","20","","","","","","","","","","","","","",""
"html-button-response","714","
        <div class=""trial-box feedback-box feedback-correct"">
          <p>✓ Correct!</p>
          <p>The correct answer was: <strong>hiwendup</strong></p>
        </div>","0","70","2.1.0","421042","","","feedback","stage1","","","","NoExposure","nm7eewa7kq","","","","","","","","","","","","","","","","","","",""
"html-button-response","2142","
      <div class=""trial-box"">
        <img src=""images/jemulok_sing.png"" class=""stim-image"" alt=""jemulok_sing.png"">
        <p class=""instr-text"">Which word matches this picture?</p>
      </div>","0","71","2.1.0","423185","","","forced_choice","stage1","jemulok","false","","NoExposure","nm7eewa7kq","jemulok","jelumok","0","true","21","","","","","","","","","","","","","",""
"html-button-response","709","
        <div class=""trial-box feedback-box feedback-correct"">
          <p>✓ Correct!</p>
          <p>The correct answer was: <strong>jemulok</strong></p>
        </div>","0","72","2.1.0","423896","","","feedback","stage1","","","","NoExposure","nm7eewa7kq","","","","","","","","","","","","","","","","","","",""
"html-button-response","1887","
      <div class=""trial-box"">
        <img src=""images/tugan_sing.png"" class=""stim-image"" alt=""tugan_sing.png"">
        <p class=""instr-text"">Which word matches this picture?</p>
      </div>","0","73","2.1.0","425784","","","forced_choice","stage1","tugan","false","","NoExposure","nm7eewa7kq","tugan","tagun","0","true","22","","","","","","","","","","","","","",""
"html-button-response","574","
        <div class=""trial-box feedback-box feedback-correct"">
          <p>✓ Correct!</p>
          <p>The correct answer was: <strong>tugan</strong></p>
        </div>","0","74","2.1.0","426358","","","feedback","stage1","","","","NoExposure","nm7eewa7kq","","","","","","","","","","","","","","","","","","",""
"html-button-response","2755","
      <div class=""trial-box"">
        <div class=""word-display"">sehilod</div>
        <img src=""images/sehilod_sing.png"" class=""stim-image"" alt=""sehilod_sing.png"">
      </div>","0","75","2.1.0","429114","","","passive_exposure","stage1","sehilod","false","null","NoExposure","nm7eewa7kq","","","","","","","","","","","","","","","","","","",""
"html-button-response","2109","
      <div class=""trial-box"">
        <div class=""word-display"">gequzis</div>
        <img src=""images/gequzis_sing.png"" class=""stim-image"" alt=""gequzis_sing.png"">
      </div>","0","76","2.1.0","431226","","","passive_exposure","stage1","gequzis","false","null","NoExposure","nm7eewa7kq","","","","","","","","","","","","","","","","","","",""
"html-button-response","2645","
      <div class=""trial-box"">
        <div class=""word-display"">falondup</div>
        <img src=""images/falon_plur.png"" class=""stim-image"" alt=""falon_plur.png"">
      </div>","0","77","2.1.0","433872","","","passive_exposure","stage1","falon","true","dup","NoExposure","nm7eewa7kq","","","","","","","","","","","","","","","","","","",""
"html-button-response","1704","
      <div class=""trial-box"">
        <div class=""word-display"">nuwikdup</div>
        <img src=""images/nuwik_plur.png"" class=""stim-image"" alt=""nuwik_plur.png"">
      </div>","0","78","2.1.0","435576","","","passive_exposure","stage1","nuwik","true","dup","NoExposure","nm7eewa7kq","","","","","","","","","","","","","","","","","","",""
"html-button-response","3248","
      <div class=""trial-box"">
        <img src=""images/falon_plur.png"" class=""stim-image"" alt=""falon_plur.png"">
        <p class=""instr-text"">Which word matches this picture?</p>
      </div>","1","79","2.1.0","438825","","","forced_choice","stage1","falon","true","","NoExposure","nm7eewa7kq","falondup","folandup","1","true","23","","","","","","","","","","","","","",""
"html-button-response","766","
        <div class=""trial-box feedback-box feedback-correct"">
          <p>✓ Correct!</p>
          <p>The correct answer was: <strong>falondup</strong></p>
        </div>","0","80","2.1.0","439592","","","feedback","stage1","","","","NoExposure","nm7eewa7kq","","","","","","","","","","","","","","","","","","",""
"html-button-response","4560","
      <div class=""trial-box"">
        <img src=""images/gequzis_sing.png"" class=""stim-image"" alt=""gequzis_sing.png"">
        <p class=""instr-text"">Which word matches this picture?</p>
      </div>","0","81","2.1.0","444153","","","forced_choice","stage1","gequzis","false","","NoExposure","nm7eewa7kq","gequzis","gequsiz","0","true","24","","","","","","","","","","","","","",""
"html-button-response","662","
        <div class=""trial-box feedback-box feedback-correct"">
          <p>✓ Correct!</p>
          <p>The correct answer was: <strong>gequzis</strong></p>
        </div>","0","82","2.1.0","444816","","","feedback","stage1","","","","NoExposure","nm7eewa7kq","","","","","","","","","","","","","","","","","","",""
"html-button-response","2935","
      <div class=""trial-box"">
        <img src=""images/sehilod_sing.png"" class=""stim-image"" alt=""sehilod_sing.png"">
        <p class=""instr-text"">Which word matches this picture?</p>
      </div>","0","83","2.1.0","447752","","","forced_choice","stage1","sehilod","false","","NoExposure","nm7eewa7kq","sehilod","sihelod","0","true","25","","","","","","","","","","","","","",""
"html-button-response","705","
        <div class=""trial-box feedback-box feedback-correct"">
          <p>✓ Correct!</p>
          <p>The correct answer was: <strong>sehilod</strong></p>
        </div>","0","84","2.1.0","448459","","","feedback","stage1","","","","NoExposure","nm7eewa7kq","","","","","","","","","","","","","","","","","","",""
"html-button-response","4333","
      <div class=""trial-box"">
        <img src=""images/nuwik_plur.png"" class=""stim-image"" alt=""nuwik_plur.png"">
        <p class=""instr-text"">Which word matches this picture?</p>
      </div>","0","85","2.1.0","452792","","","forced_choice","stage1","nuwik","true","","NoExposure","nm7eewa7kq","nuwikdup","niwukdup","0","true","26","","","","","","","","","","","","","",""
"html-button-response","671","
        <div class=""trial-box feedback-box feedback-correct"">
          <p>✓ Correct!</p>
          <p>The correct answer was: <strong>nuwikdup</strong></p>
        </div>","0","86","2.1.0","453464","","","feedback","stage1","","","","NoExposure","nm7eewa7kq","","","","","","","","","","","","","","","","","","",""
"html-button-response","1167","
      <div class=""trial-box"">
        <div class=""word-display"">firotdup</div>
        <img src=""images/firot_plur.png"" class=""stim-image"" alt=""firot_plur.png"">
      </div>","0","87","2.1.0","454632","","","passive_exposure","stage1","firot","true","dup","NoExposure","nm7eewa7kq","","","","","","","","","","","","","","","","","","",""
"html-button-response","920","
      <div class=""trial-box"">
        <div class=""word-display"">takoles</div>
        <img src=""images/takoles_sing.png"" class=""stim-image"" alt=""takoles_sing.png"">
      </div>","0","88","2.1.0","455553","","","passive_exposure","stage1","takoles","false","null","NoExposure","nm7eewa7kq","","","","","","","","","","","","","","","","","","",""
"html-button-response","1296","
      <div class=""trial-box"">
        <div class=""word-display"">gequzis</div>
        <img src=""images/gequzis_sing.png"" class=""stim-image"" alt=""gequzis_sing.png"">
      </div>","0","89","2.1.0","456850","","","passive_exposure","stage1","gequzis","false","null","NoExposure","nm7eewa7kq","","","","","","","","","","","","","","","","","","",""
"html-button-response","677","
      <div class=""trial-box"">
        <div class=""word-display"">falondup</div>
        <img src=""images/falon_plur.png"" class=""stim-image"" alt=""falon_plur.png"">
      </div>","0","90","2.1.0","457528","","","passive_exposure","stage1","falon","true","dup","NoExposure","nm7eewa7kq","","","","","","","","","","","","","","","","","","",""
"html-button-response","1807","
      <div class=""trial-box"">
        <img src=""images/falon_plur.png"" class=""stim-image"" alt=""falon_plur.png"">
        <p class=""instr-text"">Which word matches this picture?</p>
      </div>","0","91","2.1.0","459337","","","forced_choice","stage1","falon","true","","NoExposure","nm7eewa7kq","falondup","folandup","0","true","27","","","","","","","","","","","","","",""
"html-button-response","591","
        <div class=""trial-box feedback-box feedback-correct"">
          <p>✓ Correct!</p>
          <p>The correct answer was: <strong>falondup</strong></p>
        </div>","0","92","2.1.0","459928","","","feedback","stage1","","","","NoExposure","nm7eewa7kq","","","","","","","","","","","","","","","","","","",""
"html-button-response","2474","
      <div class=""trial-box"">
        <img src=""images/takoles_sing.png"" class=""stim-image"" alt=""takoles_sing.png"">
        <p class=""instr-text"">Which word matches this picture?</p>
      </div>","0","93","2.1.0","462403","","","forced_choice","stage1","takoles","false","","NoExposure","nm7eewa7kq","takoles","katoles","0","true","28","","","","","","","","","","","","","",""
"html-button-response","597","
        <div class=""trial-box feedback-box feedback-correct"">
          <p>✓ Correct!</p>
          <p>The correct answer was: <strong>takoles</strong></p>
        </div>","0","94","2.1.0","463001","","","feedback","stage1","","","","NoExposure","nm7eewa7kq","","","","","","","","","","","","","","","","","","",""
"html-button-response","1799","
      <div class=""trial-box"">
        <img src=""images/firot_plur.png"" class=""stim-image"" alt=""firot_plur.png"">
        <p class=""instr-text"">Which word matches this picture?</p>
      </div>","0","95","2.1.0","464801","","","forced_choice","stage1","firot","true","","NoExposure","nm7eewa7kq","firotdup","fitordup","0","true","29","","","","","","","","","","","","","",""
"html-button-response","567","
        <div class=""trial-box feedback-box feedback-correct"">
          <p>✓ Correct!</p>
          <p>The correct answer was: <strong>firotdup</strong></p>
        </div>","0","96","2.1.0","465368","","","feedback","stage1","","","","NoExposure","nm7eewa7kq","","","","","","","","","","","","","","","","","","",""
"html-button-response","3768","
      <div class=""trial-box"">
        <img src=""images/gequzis_sing.png"" class=""stim-image"" alt=""gequzis_sing.png"">
        <p class=""instr-text"">Which word matches this picture?</p>
      </div>","1","97","2.1.0","469137","","","forced_choice","stage1","gequzis","false","","NoExposure","nm7eewa7kq","gequzis","gequsiz","1","true","30","","","","","","","","","","","","","",""
"html-button-response","615","
        <div class=""trial-box feedback-box feedback-correct"">
          <p>✓ Correct!</p>
          <p>The correct answer was: <strong>gequzis</strong></p>
        </div>","0","98","2.1.0","469753","","","feedback","stage1","","","","NoExposure","nm7eewa7kq","","","","","","","","","","","","","","","","","","",""
"html-button-response","1302","
      <div class=""trial-box"">
        <div class=""word-display"">neseldup</div>
        <img src=""images/nesel_plur.png"" class=""stim-image"" alt=""nesel_plur.png"">
      </div>","0","99","2.1.0","471056","","","passive_exposure","stage1","nesel","true","dup","NoExposure","nm7eewa7kq","","","","","","","","","","","","","","","","","","",""
"html-button-response","952","
      <div class=""trial-box"">
        <div class=""word-display"">hiwendup</div>
        <img src=""images/hiwen_plur.png"" class=""stim-image"" alt=""hiwen_plur.png"">
      </div>","0","100","2.1.0","472009","","","passive_exposure","stage1","hiwen","true","dup","NoExposure","nm7eewa7kq","","","","","","","","","","","","","","","","","","",""
"html-button-response","712","
      <div class=""trial-box"">
        <div class=""word-display"">laniz</div>
        <img src=""images/laniz_sing.png"" class=""stim-image"" alt=""laniz_sing.png"">
      </div>","0","101","2.1.0","472721","","","passive_exposure","stage1","laniz","false","null","NoExposure","nm7eewa7kq","","","","","","","","","","","","","","","","","","",""
"html-button-response","1158","
      <div class=""trial-box"">
        <div class=""word-display"">falon</div>
        <img src=""images/falon_sing.png"" class=""stim-image"" alt=""falon_sing.png"">
      </div>","0","102","2.1.0","473880","","","passive_exposure","stage1","falon","false","null","NoExposure","nm7eewa7kq","","","","","","","","","","","","","","","","","","",""
"html-button-response","1559","
      <div class=""trial-box"">
        <img src=""images/laniz_sing.png"" class=""stim-image"" alt=""laniz_sing.png"">
        <p class=""instr-text"">Which word matches this picture?</p>
      </div>","0","103","2.1.0","475441","","","forced_choice","stage1","laniz","false","","NoExposure","nm7eewa7kq","laniz","lazin","0","true","31","","","","","","","","","","","","","",""
"html-button-response","1071","
        <div class=""trial-box feedback-box feedback-correct"">
          <p>✓ Correct!</p>
          <p>The correct answer was: <strong>laniz</strong></p>
        </div>","0","104","2.1.0","476513","","","feedback","stage1","","","","NoExposure","nm7eewa7kq","","","","","","","","","","","","","","","","","","",""
"html-button-response","3223","
      <div class=""trial-box"">
        <img src=""images/hiwen_plur.png"" class=""stim-image"" alt=""hiwen_plur.png"">
        <p class=""instr-text"">Which word matches this picture?</p>
      </div>","1","105","2.1.0","479737","","","forced_choice","stage1","hiwen","true","","NoExposure","nm7eewa7kq","hiwendup","wihendup","1","true","32","","","","","","","","","","","","","",""
"html-button-response","598","
        <div class=""trial-box feedback-box feedback-correct"">
          <p>✓ Correct!</p>
          <p>The correct answer was: <strong>hiwendup</strong></p>
        </div>","0","106","2.1.0","480336","","","feedback","stage1","","","","NoExposure","nm7eewa7kq","","","","","","","","","","","","","","","","","","",""
"html-button-response","2168","
      <div class=""trial-box"">
        <img src=""images/nesel_plur.png"" class=""stim-image"" alt=""nesel_plur.png"">
        <p class=""instr-text"">Which word matches this picture?</p>
      </div>","0","107","2.1.0","482504","","","forced_choice","stage1","nesel","true","","NoExposure","nm7eewa7kq","neseldup","nelesdup","0","true","33","","","","","","","","","","","","","",""
"html-button-response","616","
        <div class=""trial-box feedback-box feedback-correct"">
          <p>✓ Correct!</p>
          <p>The correct answer was: <strong>neseldup</strong></p>
        </div>","0","108","2.1.0","483121","","","feedback","stage1","","","","NoExposure","nm7eewa7kq","","","","","","","","","","","","","","","","","","",""
"html-button-response","1462","
      <div class=""trial-box"">
        <img src=""images/falon_sing.png"" class=""stim-image"" alt=""falon_sing.png"">
        <p class=""instr-text"">Which word matches this picture?</p>
      </div>","0","109","2.1.0","484584","","","forced_choice","stage1","falon","false","","NoExposure","nm7eewa7kq","falon","folan","0","true","34","","","","","","","","","","","","","",""
"html-button-response","536","
        <div class=""trial-box feedback-box feedback-correct"">
          <p>✓ Correct!</p>
          <p>The correct answer was: <strong>falon</strong></p>
        </div>","0","110","2.1.0","485122","","","feedback","stage1","","","","NoExposure","nm7eewa7kq","","","","","","","","","","","","","","","","","","",""
"html-button-response","1039","
      <div class=""trial-box"">
        <div class=""word-display"">lanizdup</div>
        <img src=""images/laniz_plur.png"" class=""stim-image"" alt=""laniz_plur.png"">
      </div>","0","111","2.1.0","486161","","","passive_exposure","stage1","laniz","true","dup","NoExposure","nm7eewa7kq","","","","","","","","","","","","","","","","","","",""
"html-button-response","782","
      <div class=""trial-box"">
        <div class=""word-display"">tugandup</div>
        <img src=""images/tugan_plur.png"" class=""stim-image"" alt=""tugan_plur.png"">
      </div>","0","112","2.1.0","486945","","","passive_exposure","stage1","tugan","true","dup","NoExposure","nm7eewa7kq","","","","","","","","","","","","","","","","","","",""
"html-button-response","1599","
      <div class=""trial-box"">
        <div class=""word-display"">sehilod</div>
        <img src=""images/sehilod_sing.png"" class=""stim-image"" alt=""sehilod_sing.png"">
      </div>","0","113","2.1.0","488545","","","passive_exposure","stage1","sehilod","false","null","NoExposure","nm7eewa7kq","","","","","","","","","","","","","","","","","","",""
"html-button-response","937","
      <div class=""trial-box"">
        <div class=""word-display"">firot</div>
        <img src=""images/firot_sing.png"" class=""stim-image"" alt=""firot_sing.png"">
      </div>","0","114","2.1.0","489482","","","passive_exposure","stage1","firot","false","null","NoExposure","nm7eewa7kq","","","","","","","","","","","","","","","","","","",""
"html-button-response","1711","
      <div class=""trial-box"">
        <img src=""images/laniz_plur.png"" class=""stim-image"" alt=""laniz_plur.png"">
        <p class=""instr-text"">Which word matches this picture?</p>
      </div>","0","115","2.1.0","491195","","","forced_choice","stage1","laniz","true","","NoExposure","nm7eewa7kq","lanizdup","lazindup","1","false","34","","","","","","","","","","","","","",""
"html-button-response","861","
        <div class=""trial-box feedback-box feedback-incorrect"">
          <p>✗ Incorrect</p>
          <p>The correct answer was: <strong>lanizdup</strong></p>
        </div>","0","116","2.1.0","492058","","","feedback","stage1","","","","NoExposure","nm7eewa7kq","","","","","","","","","","","","","","","","","","",""
"html-button-response","2743","
      <div class=""trial-box"">
        <img src=""images/firot_sing.png"" class=""stim-image"" alt=""firot_sing.png"">
        <p class=""instr-text"">Which word matches this picture?</p>
      </div>","0","117","2.1.0","494802","","","forced_choice","stage1","firot","false","","NoExposure","nm7eewa7kq","firot","fitor","1","false","34","","","","","","","","","","","","","",""
"html-button-response","912","
        <div class=""trial-box feedback-box feedback-incorrect"">
          <p>✗ Incorrect</p>
          <p>The correct answer was: <strong>firot</strong></p>
        </div>","0","118","2.1.0","495715","","","feedback","stage1","","","","NoExposure","nm7eewa7kq","","","","","","","","","","","","","","","","","","",""
"html-button-response","1678","
      <div class=""trial-box"">
        <img src=""images/sehilod_sing.png"" class=""stim-image"" alt=""sehilod_sing.png"">
        <p class=""instr-text"">Which word matches this picture?</p>
      </div>","0","119","2.1.0","497393","","","forced_choice","stage1","sehilod","false","","NoExposure","nm7eewa7kq","sehilod","sihelod","1","false","34","","","","","","","","","","","","","",""
"html-button-response","720","
        <div class=""trial-box feedback-box feedback-incorrect"">
          <p>✗ Incorrect</p>
          <p>The correct answer was: <strong>sehilod</strong></p>
        </div>","0","120","2.1.0","498114","","","feedback","stage1","","","","NoExposure","nm7eewa7kq","","","","","","","","","","","","","","","","","","",""
"html-button-response","2255","
      <div class=""trial-box"">
        <img src=""images/tugan_plur.png"" class=""stim-image"" alt=""tugan_plur.png"">
        <p class=""instr-text"">Which word matches this picture?</p>
      </div>","0","121","2.1.0","500370","","","forced_choice","stage1","tugan","true","","NoExposure","nm7eewa7kq","tugandup","tagundup","0","true","35","","","","","","","","","","","","","",""
"html-button-response","599","
        <div class=""trial-box feedback-box feedback-correct"">
          <p>✓ Correct!</p>
          <p>The correct answer was: <strong>tugandup</strong></p>
        </div>","0","122","2.1.0","500970","","","feedback","stage1","","","","NoExposure","nm7eewa7kq","","","","","","","","","","","","","","","","","","",""
"html-button-response","1207","
      <div class=""trial-box"">
        <div class=""word-display"">nuwikdup</div>
        <img src=""images/nuwik_plur.png"" class=""stim-image"" alt=""nuwik_plur.png"">
      </div>","0","123","2.1.0","502178","","","passive_exposure","stage1","nuwik","true","dup","NoExposure","nm7eewa7kq","","","","","","","","","","","","","","","","","","",""
"html-button-response","815","
      <div class=""trial-box"">
        <div class=""word-display"">wukin</div>
        <img src=""images/wukin_sing.png"" class=""stim-image"" alt=""wukin_sing.png"">
      </div>","0","124","2.1.0","502994","","","passive_exposure","stage1","wukin","false","null","NoExposure","nm7eewa7kq","","","","","","","","","","","","","","","","","","",""
"html-button-response","791","
      <div class=""trial-box"">
        <div class=""word-display"">maqubdup</div>
        <img src=""images/maqub_plur.png"" class=""stim-image"" alt=""maqub_plur.png"">
      </div>","0","125","2.1.0","503786","","","passive_exposure","stage1","maqub","true","dup","NoExposure","nm7eewa7kq","","","","","","","","","","","","","","","","","","",""
"html-button-response","855","
      <div class=""trial-box"">
        <div class=""word-display"">tugan</div>
        <img src=""images/tugan_sing.png"" class=""stim-image"" alt=""tugan_sing.png"">
      </div>","0","126","2.1.0","504642","","","passive_exposure","stage1","tugan","false","null","NoExposure","nm7eewa7kq","","","","","","","","","","","","","","","","","","",""
"html-button-response","2063","
      <div class=""trial-box"">
        <img src=""images/wukin_sing.png"" class=""stim-image"" alt=""wukin_sing.png"">
        <p class=""instr-text"">Which word matches this picture?</p>
      </div>","0","127","2.1.0","506706","","","forced_choice","stage1","wukin","false","","NoExposure","nm7eewa7kq","wukin","wikun","1","false","35","","","","","","","","","","","","","",""
"html-button-response","647","
        <div class=""trial-box feedback-box feedback-incorrect"">
          <p>✗ Incorrect</p>
          <p>The correct answer was: <strong>wukin</strong></p>
        </div>","0","128","2.1.0","507353","","","feedback","stage1","","","","NoExposure","nm7eewa7kq","","","","","","","","","","","","","","","","","","",""
"html-button-response","1872","
      <div class=""trial-box"">
        <img src=""images/nuwik_plur.png"" class=""stim-image"" alt=""nuwik_plur.png"">
        <p class=""instr-text"">Which word matches this picture?</p>
      </div>","1","129","2.1.0","509226","","","forced_choice","stage1","nuwik","true","","NoExposure","nm7eewa7kq","nuwikdup","niwukdup","1","true","36","","","","","","","","","","","","","",""
"html-button-response","880","
        <div class=""trial-box feedback-box feedback-correct"">
          <p>✓ Correct!</p>
          <p>The correct answer was: <strong>nuwikdup</strong></p>
        </div>","0","130","2.1.0","510107","","","feedback","stage1","","","","NoExposure","nm7eewa7kq","","","","","","","","","","","","","","","","","","",""
"html-button-response","2325","
      <div class=""trial-box"">
        <img src=""images/tugan_sing.png"" class=""stim-image"" alt=""tugan_sing.png"">
        <p class=""instr-text"">Which word matches this picture?</p>
      </div>","1","131","2.1.0","512433","","","forced_choice","stage1","tugan","false","","NoExposure","nm7eewa7kq","tugan","tagun","1","true","37","","","","","","","","","","","","","",""
"html-button-response","632","
        <div class=""trial-box feedback-box feedback-correct"">
          <p>✓ Correct!</p>
          <p>The correct answer was: <strong>tugan</strong></p>
        </div>","0","132","2.1.0","513066","","","feedback","stage1","","","","NoExposure","nm7eewa7kq","","","","","","","","","","","","","","","","","","",""
"html-button-response","2351","
      <div class=""trial-box"">
        <img src=""images/maqub_plur.png"" class=""stim-image"" alt=""maqub_plur.png"">
        <p class=""instr-text"">Which word matches this picture?</p>
      </div>","0","133","2.1.0","515417","","","forced_choice","stage1","maqub","true","","NoExposure","nm7eewa7kq","maqubdup","mabuqdup","1","false","37","","","","","","","","","","","","","",""
"html-button-response","592","
        <div class=""trial-box feedback-box feedback-incorrect"">
          <p>✗ Incorrect</p>
          <p>The correct answer was: <strong>maqubdup</strong></p>
        </div>","0","134","2.1.0","516009","","","feedback","stage1","","","","NoExposure","nm7eewa7kq","","","","","","","","","","","","","","","","","","",""
"html-button-response","1048","
      <div class=""trial-box"">
        <div class=""word-display"">nuwik</div>
        <img src=""images/nuwik_sing.png"" class=""stim-image"" alt=""nuwik_sing.png"">
      </div>","0","135","2.1.0","517058","","","passive_exposure","stage1","nuwik","false","null","NoExposure","nm7eewa7kq","","","","","","","","","","","","","","","","","","",""
"html-button-response","831","
      <div class=""trial-box"">
        <div class=""word-display"">maqub</div>
        <img src=""images/maqub_sing.png"" class=""stim-image"" alt=""maqub_sing.png"">
      </div>","0","136","2.1.0","517890","","","passive_exposure","stage1","maqub","false","null","NoExposure","nm7eewa7kq","","","","","","","","","","","","","","","","","","",""
"html-button-response","783","
      <div class=""trial-box"">
        <div class=""word-display"">gequzisdup</div>
        <img src=""images/gequzis_plur.png"" class=""stim-image"" alt=""gequzis_plur.png"">
      </div>","0","137","2.1.0","518674","","","passive_exposure","stage1","gequzis","true","dup","NoExposure","nm7eewa7kq","","","","","","","","","","","","","","","","","","",""
"html-button-response","751","
      <div class=""trial-box"">
        <div class=""word-display"">wukindup</div>
        <img src=""images/wukin_plur.png"" class=""stim-image"" alt=""wukin_plur.png"">
      </div>","0","138","2.1.0","519425","","","passive_exposure","stage1","wukin","true","dup","NoExposure","nm7eewa7kq","","","","","","","","","","","","","","","","","","",""
"html-button-response","7464","
      <div class=""trial-box"">
        <img src=""images/gequzis_plur.png"" class=""stim-image"" alt=""gequzis_plur.png"">
        <p class=""instr-text"">Which word matches this picture?</p>
      </div>","1","139","2.1.0","526890","","","forced_choice","stage1","gequzis","true","","NoExposure","nm7eewa7kq","gequzisdup","gequsizdup","1","true","38","","","","","","","","","","","","","",""
"html-button-response","638","
        <div class=""trial-box feedback-box feedback-correct"">
          <p>✓ Correct!</p>
          <p>The correct answer was: <strong>gequzisdup</strong></p>
        </div>","0","140","2.1.0","527530","","","feedback","stage1","","","","NoExposure","nm7eewa7kq","","","","","","","","","","","","","","","","","","",""
"html-button-response","1783","
      <div class=""trial-box"">
        <img src=""images/maqub_sing.png"" class=""stim-image"" alt=""maqub_sing.png"">
        <p class=""instr-text"">Which word matches this picture?</p>
      </div>","1","141","2.1.0","529314","","","forced_choice","stage1","maqub","false","","NoExposure","nm7eewa7kq","maqub","mabuq","1","true","39","","","","","","","","","","","","","",""
"html-button-response","615","
        <div class=""trial-box feedback-box feedback-correct"">
          <p>✓ Correct!</p>
          <p>The correct answer was: <strong>maqub</strong></p>
        </div>","0","142","2.1.0","529930","","","feedback","stage1","","","","NoExposure","nm7eewa7kq","","","","","","","","","","","","","","","","","","",""
"html-button-response","1889","
      <div class=""trial-box"">
        <img src=""images/wukin_plur.png"" class=""stim-image"" alt=""wukin_plur.png"">
        <p class=""instr-text"">Which word matches this picture?</p>
      </div>","1","143","2.1.0","531820","","","forced_choice","stage1","wukin","true","","NoExposure","nm7eewa7kq","wukindup","wikundup","1","true","40","","","","","","","","","","","","","",""
"html-button-response","597","
        <div class=""trial-box feedback-box feedback-correct"">
          <p>✓ Correct!</p>
          <p>The correct answer was: <strong>wukindup</strong></p>
        </div>","0","144","2.1.0","532418","","","feedback","stage1","","","","NoExposure","nm7eewa7kq","","","","","","","","","","","","","","","","","","",""
"html-button-response","1423","
      <div class=""trial-box"">
        <img src=""images/nuwik_sing.png"" class=""stim-image"" alt=""nuwik_sing.png"">
        <p class=""instr-text"">Which word matches this picture?</p>
      </div>","0","145","2.1.0","533842","","","forced_choice","stage1","nuwik","false","","NoExposure","nm7eewa7kq","nuwik","niwuk","0","true","41","","","","","","","","","","","","","",""
"html-button-response","535","
        <div class=""trial-box feedback-box feedback-correct"">
          <p>✓ Correct!</p>
          <p>The correct answer was: <strong>nuwik</strong></p>
        </div>","0","146","2.1.0","534378","","","feedback","stage1","","","","NoExposure","nm7eewa7kq","","","","","","","","","","","","","","","","","","",""
"html-button-response","1266","
      <div class=""trial-box"">
        <div class=""word-display"">takolesdup</div>
        <img src=""images/takoles_plur.png"" class=""stim-image"" alt=""takoles_plur.png"">
      </div>","0","147","2.1.0","535645","","","passive_exposure","stage1","takoles","true","dup","NoExposure","nm7eewa7kq","","","","","","","","","","","","","","","","","","",""
"html-button-response","949","
      <div class=""trial-box"">
        <div class=""word-display"">wumos</div>
        <img src=""images/wumos_sing.png"" class=""stim-image"" alt=""wumos_sing.png"">
      </div>","0","148","2.1.0","536595","","","passive_exposure","stage1","wumos","false","null","NoExposure","nm7eewa7kq","","","","","","","","","","","","","","","","","","",""
"html-button-response","758","
      <div class=""trial-box"">
        <div class=""word-display"">sehiloddup</div>
        <img src=""images/sehilod_plur.png"" class=""stim-image"" alt=""sehilod_plur.png"">
      </div>","0","149","2.1.0","537354","","","passive_exposure","stage1","sehilod","true","dup","NoExposure","nm7eewa7kq","","","","","","","","","","","","","","","","","","",""
"html-button-response","1374","
      <div class=""trial-box"">
        <div class=""word-display"">jemulok</div>
        <img src=""images/jemulok_sing.png"" class=""stim-image"" alt=""jemulok_sing.png"">
      </div>","0","150","2.1.0","538730","","","passive_exposure","stage1","jemulok","false","null","NoExposure","nm7eewa7kq","","","","","","","","","","","","","","","","","","",""
"html-button-response","1559","
      <div class=""trial-box"">
        <img src=""images/takoles_plur.png"" class=""stim-image"" alt=""takoles_plur.png"">
        <p class=""instr-text"">Which word matches this picture?</p>
      </div>","1","151","2.1.0","540290","","","forced_choice","stage1","takoles","true","","NoExposure","nm7eewa7kq","takolesdup","katolesdup","1","true","42","","","","","","","","","","","","","",""
"html-button-response","551","
        <div class=""trial-box feedback-box feedback-correct"">
          <p>✓ Correct!</p>
          <p>The correct answer was: <strong>takolesdup</strong></p>
        </div>","0","152","2.1.0","540841","","","feedback","stage1","","","","NoExposure","nm7eewa7kq","","","","","","","","","","","","","","","","","","",""
"html-button-response","1687","
      <div class=""trial-box"">
        <img src=""images/wumos_sing.png"" class=""stim-image"" alt=""wumos_sing.png"">
        <p class=""instr-text"">Which word matches this picture?</p>
      </div>","1","153","2.1.0","542529","","","forced_choice","stage1","wumos","false","","NoExposure","nm7eewa7kq","wumos","womus","1","true","43","","","","","","","","","","","","","",""
"html-button-response","632","
        <div class=""trial-box feedback-box feedback-correct"">
          <p>✓ Correct!</p>
          <p>The correct answer was: <strong>wumos</strong></p>
        </div>","0","154","2.1.0","543162","","","feedback","stage1","","","","NoExposure","nm7eewa7kq","","","","","","","","","","","","","","","","","","",""
"html-button-response","1863","
      <div class=""trial-box"">
        <img src=""images/jemulok_sing.png"" class=""stim-image"" alt=""jemulok_sing.png"">
        <p class=""instr-text"">Which word matches this picture?</p>
      </div>","1","155","2.1.0","545026","","","forced_choice","stage1","jemulok","false","","NoExposure","nm7eewa7kq","jemulok","jelumok","1","true","44","","","","","","","","","","","","","",""
"html-button-response","642","
        <div class=""trial-box feedback-box feedback-correct"">
          <p>✓ Correct!</p>
          <p>The correct answer was: <strong>jemulok</strong></p>
        </div>","0","156","2.1.0","545669","","","feedback","stage1","","","","NoExposure","nm7eewa7kq","","","","","","","","","","","","","","","","","","",""
"html-button-response","12003","
      <div class=""trial-box"">
        <img src=""images/sehilod_plur.png"" class=""stim-image"" alt=""sehilod_plur.png"">
        <p class=""instr-text"">Which word matches this picture?</p>
      </div>","1","157","2.1.0","557675","","","forced_choice","stage1","sehilod","true","","NoExposure","nm7eewa7kq","sehiloddup","siheloddup","1","true","45","","","","","","","","","","","","","",""
"html-button-response","664","
        <div class=""trial-box feedback-box feedback-correct"">
          <p>✓ Correct!</p>
          <p>The correct answer was: <strong>sehiloddup</strong></p>
        </div>","0","158","2.1.0","558339","","","feedback","stage1","","","","NoExposure","nm7eewa7kq","","","","","","","","","","","","","","","","","","",""
"html-button-response","1633","
      <div class=""trial-box"">
        <div class=""word-display"">nesel</div>
        <img src=""images/nesel_sing.png"" class=""stim-image"" alt=""nesel_sing.png"">
      </div>","0","159","2.1.0","559972","","","passive_exposure","stage1","nesel","false","null","NoExposure","nm7eewa7kq","","","","","","","","","","","","","","","","","","",""
"html-button-response","1430","
      <div class=""trial-box"">
        <div class=""word-display"">hiwen</div>
        <img src=""images/hiwen_sing.png"" class=""stim-image"" alt=""hiwen_sing.png"">
      </div>","0","160","2.1.0","561403","","","passive_exposure","stage1","hiwen","false","null","NoExposure","nm7eewa7kq","","","","","","","","","","","","","","","","","","",""
"html-button-response","839","
      <div class=""trial-box"">
        <div class=""word-display"">jemulokdup</div>
        <img src=""images/jemulok_plur.png"" class=""stim-image"" alt=""jemulok_plur.png"">
      </div>","0","161","2.1.0","562243","","","passive_exposure","stage1","jemulok","true","dup","NoExposure","nm7eewa7kq","","","","","","","","","","","","","","","","","","",""
"html-button-response","711","
      <div class=""trial-box"">
        <div class=""word-display"">wumosdup</div>
        <img src=""images/wumos_plur.png"" class=""stim-image"" alt=""wumos_plur.png"">
      </div>","0","162","2.1.0","562955","","","passive_exposure","stage1","wumos","true","dup","NoExposure","nm7eewa7kq","","","","","","","","","","","","","","","","","","",""
"html-button-response","1423","
      <div class=""trial-box"">
        <img src=""images/nesel_sing.png"" class=""stim-image"" alt=""nesel_sing.png"">
        <p class=""instr-text"">Which word matches this picture?</p>
      </div>","0","163","2.1.0","564380","","","forced_choice","stage1","nesel","false","","NoExposure","nm7eewa7kq","nesel","neles","0","true","46","","","","","","","","","","","","","",""
"html-button-response","600","
        <div class=""trial-box feedback-box feedback-correct"">
          <p>✓ Correct!</p>
          <p>The correct answer was: <strong>nesel</strong></p>
        </div>","0","164","2.1.0","564980","","","feedback","stage1","","","","NoExposure","nm7eewa7kq","","","","","","","","","","","","","","","","","","",""
"html-button-response","1606","
      <div class=""trial-box"">
        <img src=""images/jemulok_plur.png"" class=""stim-image"" alt=""jemulok_plur.png"">
        <p class=""instr-text"">Which word matches this picture?</p>
      </div>","0","165","2.1.0","566587","","","forced_choice","stage1","jemulok","true","","NoExposure","nm7eewa7kq","jemulokdup","jelumokdup","0","true","47","","","","","","","","","","","","","",""
"html-button-response","599","
        <div class=""trial-box feedback-box feedback-correct"">
          <p>✓ Correct!</p>
          <p>The correct answer was: <strong>jemulokdup</strong></p>
        </div>","0","166","2.1.0","567187","","","feedback","stage1","","","","NoExposure","nm7eewa7kq","","","","","","","","","","","","","","","","","","",""
"html-button-response","1855","
      <div class=""trial-box"">
        <img src=""images/wumos_plur.png"" class=""stim-image"" alt=""wumos_plur.png"">
        <p class=""instr-text"">Which word matches this picture?</p>
      </div>","0","167","2.1.0","569043","","","forced_choice","stage1","wumos","true","","NoExposure","nm7eewa7kq","wumosdup","womusdup","0","true","48","","","","","","","","","","","","","",""
"html-button-response","575","
        <div class=""trial-box feedback-box feedback-correct"">
          <p>✓ Correct!</p>
          <p>The correct answer was: <strong>wumosdup</strong></p>
        </div>","0","168","2.1.0","569620","","","feedback","stage1","","","","NoExposure","nm7eewa7kq","","","","","","","","","","","","","","","","","","",""
"html-button-response","1519","
      <div class=""trial-box"">
        <img src=""images/hiwen_sing.png"" class=""stim-image"" alt=""hiwen_sing.png"">
        <p class=""instr-text"">Which word matches this picture?</p>
      </div>","0","169","2.1.0","571140","","","forced_choice","stage1","hiwen","false","","NoExposure","nm7eewa7kq","hiwen","wihen","1","false","48","","","","","","","","","","","","","",""
"html-button-response","663","
        <div class=""trial-box feedback-box feedback-incorrect"">
          <p>✗ Incorrect</p>
          <p>The correct answer was: <strong>hiwen</strong></p>
        </div>","0","170","2.1.0","571804","","","feedback","stage1","","","","NoExposure","nm7eewa7kq","","","","","","","","","","","","","","","","","","",""
"html-button-response","4638","
    <div class=""instr-box"">
      <h2>Meet the aliens</h2>
      <p>The language you have been learning is spoken by two alien species: <strong>Gulus</strong> and <strong>Norls</strong>.</p>
      <p>On the next screens you will see images of both species. Try to learn which is which!</p>
    </div>","0","171","2.1.0","576443","","","alien_intro","","","","","NoExposure","nm7eewa7kq","","","","","","","","","","","","","","","","","","",""
"html-button-response","19543","
    <div class=""trial-box"">
      <p class=""species-label gulu-label"">This is a <strong>Gulu</strong></p>
      <img src=""images/gulu_1.png"" class=""alien-image"" alt=""gulu_1.png"">
    </div>","0","172","2.1.0","595987","","","alien_show","","","","","NoExposure","nm7eewa7kq","","","","","","Gulu","","","","","","","","","","","","",""
"html-button-response","2039","
    <div class=""trial-box"">
      <p class=""species-label norl-label"">This is a <strong>Norl</strong></p>
      <img src=""images/norl_1.png"" class=""alien-image"" alt=""norl_1.png"">
    </div>","0","173","2.1.0","598027","","","alien_show","","","","","NoExposure","nm7eewa7kq","","","","","","Norl","","","","","","","","","","","","",""
"html-button-response","2103","
      <div class=""trial-box"">
        <img src=""images/gulu_2.png"" class=""alien-image"" alt=""gulu_2.png"">
        <p class=""instr-text"">Which species is this?</p>
      </div>","0","174","2.1.0","600131","","","alien_id","","","","","NoExposure","nm7eewa7kq","","","","true","","","gulu_2.png","Gulu","","","","","","","","","","",""
"html-button-response","839","
        <div class=""trial-box feedback-box feedback-correct"">
          <p>✓ Correct!</p>
        </div>","0","175","2.1.0","600971","","","alien_id_feedback","","","","","NoExposure","nm7eewa7kq","","","","","","","","","","","","","","","","","","",""
"html-button-response","5543","
      <div class=""trial-box"">
        <img src=""images/gulu_3.png"" class=""alien-image"" alt=""gulu_3.png"">
        <p class=""instr-text"">Which species is this?</p>
      </div>","0","176","2.1.0","606515","","","alien_id","","","","","NoExposure","nm7eewa7kq","","","","true","","","gulu_3.png","Gulu","","","","","","","","","","",""
"html-button-response","984","
        <div class=""trial-box feedback-box feedback-correct"">
          <p>✓ Correct!</p>
        </div>","0","177","2.1.0","607500","","","alien_id_feedback","","","","","NoExposure","nm7eewa7kq","","","","","","","","","","","","","","","","","","",""
"html-button-response","1199","
      <div class=""trial-box"">
        <img src=""images/norl_2.png"" class=""alien-image"" alt=""norl_2.png"">
        <p class=""instr-text"">Which species is this?</p>
      </div>","1","178","2.1.0","608700","","","alien_id","","","","","NoExposure","nm7eewa7kq","","","","true","","","norl_2.png","Norl","","","","","","","","","","",""
"html-button-response","1047","
        <div class=""trial-box feedback-box feedback-correct"">
          <p>✓ Correct!</p>
        </div>","0","179","2.1.0","609747","","","alien_id_feedback","","","","","NoExposure","nm7eewa7kq","","","","","","","","","","","","","","","","","","",""
"html-button-response","951","
      <div class=""trial-box"">
        <img src=""images/norl_3.png"" class=""alien-image"" alt=""norl_3.png"">
        <p class=""instr-text"">Which species is this?</p>
      </div>","1","180","2.1.0","610699","","","alien_id","","","","","NoExposure","nm7eewa7kq","","","","false","","","norl_3.png","Norl","","","","","","","","","","",""
"html-button-response","879","
        <div class=""trial-box feedback-box feedback-incorrect"">
          <p>✗ That was a <strong>Norl</strong>.</p>
        </div>","0","181","2.1.0","611580","","","alien_id_feedback","","","","","NoExposure","nm7eewa7kq","","","","","","","","","","","","","","","","","","",""
"html-button-response","6359","
    <div class=""instr-box"">
      <h2>Part 2: Learning with aliens</h2>
      <p>Now you will continue learning the language, but this time you will also see which alien is speaking.</p>
      <ul>
        <li>Each word will appear alongside a picture of the alien who used it.</li>
        <li>You will still have <strong>multiple-choice questions</strong> with feedback.</li>
        <li>Pay attention to which aliens use which words!</li>
      </ul>
      <p>Click <strong>Start</strong> to begin.</p>
    </div>","0","182","2.1.0","617940","","","instructions_stage2","","","","","NoExposure","nm7eewa7kq","","","","","","","","","","","","","","","","","","",""
"html-button-response","2967","
      <div class=""trial-box stage2-trial"">
        <div class=""stage2-pair"">
          <div class=""stage2-item"">
            <img src=""images/norl_3.png"" class=""stim-image"" alt=""norl_3.png"">
            <span class=""species-label norl-label"">Norl</span>
          </div>
          <div class=""stage2-item"">
            <img src=""images/takoles_sing.png"" class=""stim-image"" alt=""takoles_sing.png"">
            <div class=""word-display"">takoles</div>
          </div>
        </div>
      </div>","0","183","2.1.0","620909","","","passive_exposure","stage2","takoles","false","null","NoExposure","nm7eewa7kq","","","","","","Norl","","","","","","","","","","","","",""
"html-button-response","1863","
      <div class=""trial-box stage2-trial"">
        <div class=""stage2-pair"">
          <div class=""stage2-item"">
            <img src=""images/gulu_5.png"" class=""stim-image"" alt=""gulu_5.png"">
            <span class=""species-label gulu-label"">Gulu</span>
          </div>
          <div class=""stage2-item"">
            <img src=""images/laniz_sing.png"" class=""stim-image"" alt=""laniz_sing.png"">
            <div class=""word-display"">laniz</div>
          </div>
        </div>
      </div>","0","184","2.1.0","622773","","","passive_exposure","stage2","laniz","false","null","NoExposure","nm7eewa7kq","","","","","","Gulu","","","","","","","","","","","","",""
"html-button-response","2351","
      <div class=""trial-box stage2-trial"">
        <div class=""stage2-pair"">
          <div class=""stage2-item"">
            <img src=""images/gulu_2.png"" class=""stim-image"" alt=""gulu_2.png"">
            <span class=""species-label gulu-label"">Gulu</span>
          </div>
          <div class=""stage2-item"">
            <img src=""images/takoles_plur.png"" class=""stim-image"" alt=""takoles_plur.png"">
            <div class=""word-display"">takolesdup</div>
          </div>
        </div>
      </div>","0","185","2.1.0","625124","","","passive_exposure","stage2","takoles","true","dup","NoExposure","nm7eewa7kq","","","","","","Gulu","","","","","","","","","","","","",""
"html-button-response","2103","
      <div class=""trial-box stage2-trial"">
        <div class=""stage2-pair"">
          <div class=""stage2-item"">
            <img src=""images/norl_2.png"" class=""stim-image"" alt=""norl_2.png"">
            <span class=""species-label norl-label"">Norl</span>
          </div>
          <div class=""stage2-item"">
            <img src=""images/maqub_sing.png"" class=""stim-image"" alt=""maqub_sing.png"">
            <div class=""word-display"">maqub</div>
          </div>
        </div>
      </div>","0","186","2.1.0","627229","","","passive_exposure","stage2","maqub","false","null","NoExposure","nm7eewa7kq","","","","","","Norl","","","","","","","","","","","","",""
"html-button-response","1647","
      <div class=""trial-box stage2-trial"">
        <div class=""stage2-pair"">
          <div class=""stage2-item"">
            <img src=""images/norl_3.png"" class=""stim-image"" alt=""norl_3.png"">
            <span class=""species-label norl-label"">Norl</span>
          </div>
          <div class=""stage2-item"">
            <img src=""images/tugan_plur.png"" class=""stim-image"" alt=""tugan_plur.png"">
            <div class=""word-display"">tugannup</div>
          </div>
        </div>
      </div>","0","187","2.1.0","628877","","","passive_exposure","stage2","tugan","true","nup","NoExposure","nm7eewa7kq","","","","","","Norl","","","","","","","","","","","","",""
"html-button-response","1686","
      <div class=""trial-box stage2-trial"">
        <div class=""stage2-pair"">
          <div class=""stage2-item"">
            <img src=""images/gulu_4.png"" class=""stim-image"" alt=""gulu_4.png"">
            <span class=""species-label gulu-label"">Gulu</span>
          </div>
          <div class=""stage2-item"">
            <img src=""images/gequzis_sing.png"" class=""stim-image"" alt=""gequzis_sing.png"">
            <div class=""word-display"">gequzis</div>
          </div>
        </div>
      </div>","0","188","2.1.0","630564","","","passive_exposure","stage2","gequzis","false","null","NoExposure","nm7eewa7kq","","","","","","Gulu","","","","","","","","","","","","",""
"html-button-response","1383","
      <div class=""trial-box stage2-trial"">
        <div class=""stage2-pair"">
          <div class=""stage2-item"">
            <img src=""images/gulu_4.png"" class=""stim-image"" alt=""gulu_4.png"">
            <span class=""species-label gulu-label"">Gulu</span>
          </div>
          <div class=""stage2-item"">
            <img src=""images/wumos_plur.png"" class=""stim-image"" alt=""wumos_plur.png"">
            <div class=""word-display"">wumosdup</div>
          </div>
        </div>
      </div>","0","189","2.1.0","631949","","","passive_exposure","stage2","wumos","true","dup","NoExposure","nm7eewa7kq","","","","","","Gulu","","","","","","","","","","","","",""
"html-button-response","1442","
      <div class=""trial-box stage2-trial"">
        <div class=""stage2-pair"">
          <div class=""stage2-item"">
            <img src=""images/norl_6.png"" class=""stim-image"" alt=""norl_6.png"">
            <span class=""species-label norl-label"">Norl</span>
          </div>
          <div class=""stage2-item"">
            <img src=""images/nesel_plur.png"" class=""stim-image"" alt=""nesel_plur.png"">
            <div class=""word-display"">neselnup</div>
          </div>
        </div>
      </div>","0","190","2.1.0","633391","","","passive_exposure","stage2","nesel","true","nup","NoExposure","nm7eewa7kq","","","","","","Norl","","","","","","","","","","","","",""
"html-button-response","9308","
      <div class=""trial-box stage2-trial"">
        <div class=""stage2-pair"">
          <div class=""stage2-item"">
            <img src=""images/gulu_6.png"" class=""stim-image"" alt=""gulu_6.png"">
            <span class=""species-label gulu-label"">Gulu</span>
          </div>
          <div class=""stage2-item"">
            <img src=""images/laniz_sing.png"" class=""stim-image"" alt=""laniz_sing.png"">
            <p class=""instr-text"">Which word did the Gulu use?</p>
          </div>
        </div>
      </div>","1","191","2.1.0","642700","","","forced_choice","stage2","laniz","false","","NoExposure","nm7eewa7kq","laniz","lazin","1","true","49","Gulu","","","","","","","","","","","","",""
"html-button-response","1127","
        <div class=""trial-box feedback-box feedback-correct"">
          <p>✓ Correct!</p>
          <p>The correct answer was: <strong>laniz</strong></p>
        </div>","0","192","2.1.0","643828","","","feedback","stage2","","","","NoExposure","nm7eewa7kq","","","","","","","","","","","","","","","","","","",""
"html-button-response","8167","
      <div class=""trial-box stage2-trial"">
        <div class=""stage2-pair"">
          <div class=""stage2-item"">
            <img src=""images/gulu_1.png"" class=""stim-image"" alt=""gulu_1.png"">
            <span class=""species-label gulu-label"">Gulu</span>
          </div>
          <div class=""stage2-item"">
            <img src=""images/gequzis_sing.png"" class=""stim-image"" alt=""gequzis_sing.png"">
            <p class=""instr-text"">Which word did the Gulu use?</p>
          </div>
        </div>
      </div>","1","193","2.1.0","651996","","","forced_choice","stage2","gequzis","false","","NoExposure","nm7eewa7kq","gequzis","gequsiz","1","true","50","Gulu","","","","","","","","","","","","",""
"html-button-response","1456","
        <div class=""trial-box feedback-box feedback-correct"">
          <p>✓ Correct!</p>
          <p>The correct answer was: <strong>gequzis</strong></p>
        </div>","0","194","2.1.0","653453","","","feedback","stage2","","","","NoExposure","nm7eewa7kq","","","","","","","","","","","","","","","","","","",""
"html-button-response","35079","
      <div class=""trial-box stage2-trial"">
        <div class=""stage2-pair"">
          <div class=""stage2-item"">
            <img src=""images/norl_5.png"" class=""stim-image"" alt=""norl_5.png"">
            <span class=""species-label norl-label"">Norl</span>
          </div>
          <div class=""stage2-item"">
            <img src=""images/maqub_sing.png"" class=""stim-image"" alt=""maqub_sing.png"">
            <p class=""instr-text"">Which word did the Norl use?</p>
          </div>
        </div>
      </div>","1","195","2.1.0","688535","","","forced_choice","stage2","maqub","false","","NoExposure","nm7eewa7kq","maqub","mabuq","1","true","51","Norl","","","","","","","","","","","","",""
"html-button-response","782","
        <div class=""trial-box feedback-box feedback-correct"">
          <p>✓ Correct!</p>
          <p>The correct answer was: <strong>maqub</strong></p>
        </div>","0","196","2.1.0","689317","","","feedback","stage2","","","","NoExposure","nm7eewa7kq","","","","","","","","","","","","","","","","","","",""
"html-button-response","10624","
      <div class=""trial-box stage2-trial"">
        <div class=""stage2-pair"">
          <div class=""stage2-item"">
            <img src=""images/norl_3.png"" class=""stim-image"" alt=""norl_3.png"">
            <span class=""species-label norl-label"">Norl</span>
          </div>
          <div class=""stage2-item"">
            <img src=""images/tugan_plur.png"" class=""stim-image"" alt=""tugan_plur.png"">
            <p class=""instr-text"">Which word did the Norl use?</p>
          </div>
        </div>
      </div>","1","197","2.1.0","699942","","","forced_choice","stage2","tugan","true","","NoExposure","nm7eewa7kq","tugannup","tagunnup","1","true","52","Norl","","","","","","","","","","","","",""
"html-button-response","695","
        <div class=""trial-box feedback-box feedback-correct"">
          <p>✓ Correct!</p>
          <p>The correct answer was: <strong>tugannup</strong></p>
        </div>","0","198","2.1.0","700638","","","feedback","stage2","","","","NoExposure","nm7eewa7kq","","","","","","","","","","","","","","","","","","",""
"html-button-response","4470","
      <div class=""trial-box stage2-trial"">
        <div class=""stage2-pair"">
          <div class=""stage2-item"">
            <img src=""images/norl_6.png"" class=""stim-image"" alt=""norl_6.png"">
            <span class=""species-label norl-label"">Norl</span>
          </div>
          <div class=""stage2-item"">
            <img src=""images/nesel_plur.png"" class=""stim-image"" alt=""nesel_plur.png"">
            <p class=""instr-text"">Which word did the Norl use?</p>
          </div>
        </div>
      </div>","1","199","2.1.0","705110","","","forced_choice","stage2","nesel","true","","NoExposure","nm7eewa7kq","neselnup","nelesnup","1","true","53","Norl","","","","","","","","","","","","",""
"html-button-response","615","
        <div class=""trial-box feedback-box feedback-correct"">
          <p>✓ Correct!</p>
          <p>The correct answer was: <strong>neselnup</strong></p>
        </div>","0","200","2.1.0","705726","","","feedback","stage2","","","","NoExposure","nm7eewa7kq","","","","","","","","","","","","","","","","","","",""
"html-button-response","9007","
      <div class=""trial-box stage2-trial"">
        <div class=""stage2-pair"">
          <div class=""stage2-item"">
            <img src=""images/norl_4.png"" class=""stim-image"" alt=""norl_4.png"">
            <span class=""species-label norl-label"">Norl</span>
          </div>
          <div class=""stage2-item"">
            <img src=""images/takoles_sing.png"" class=""stim-image"" alt=""takoles_sing.png"">
            <p class=""instr-text"">Which word did the Norl use?</p>
          </div>
        </div>
      </div>","1","201","2.1.0","714734","","","forced_choice","stage2","takoles","false","","NoExposure","nm7eewa7kq","takoles","katoles","1","true","54","Norl","","","","","","","","","","","","",""
"html-button-response","663","
        <div class=""trial-box feedback-box feedback-correct"">
          <p>✓ Correct!</p>
          <p>The correct answer was: <strong>takoles</strong></p>
        </div>","0","202","2.1.0","715397","","","feedback","stage2","","","","NoExposure","nm7eewa7kq","","","","","","","","","","","","","","","","","","",""
"html-button-response","1601","
      <div class=""trial-box stage2-trial"">
        <div class=""stage2-pair"">
          <div class=""stage2-item"">
            <img src=""images/gulu_5.png"" class=""stim-image"" alt=""gulu_5.png"">
            <span class=""species-label gulu-label"">Gulu</span>
          </div>
          <div class=""stage2-item"">
            <img src=""images/takoles_plur.png"" class=""stim-image"" alt=""takoles_plur.png"">
            <p class=""instr-text"">Which word did the Gulu use?</p>
          </div>
        </div>
      </div>","0","203","2.1.0","716999","","","forced_choice","stage2","takoles","true","","NoExposure","nm7eewa7kq","takolesdup","katolesdup","0","true","55","Gulu","","","","","","","","","","","","",""
"html-button-response","927","
        <div class=""trial-box feedback-box feedback-correct"">
          <p>✓ Correct!</p>
          <p>The correct answer was: <strong>takolesdup</strong></p>
        </div>","0","204","2.1.0","717926","","","feedback","stage2","","","","NoExposure","nm7eewa7kq","","","","","","","","","","","","","","","","","","",""
"html-button-response","4287","
      <div class=""trial-box stage2-trial"">
        <div class=""stage2-pair"">
          <div class=""stage2-item"">
            <img src=""images/gulu_3.png"" class=""stim-image"" alt=""gulu_3.png"">
            <span class=""species-label gulu-label"">Gulu</span>
          </div>
          <div class=""stage2-item"">
            <img src=""images/wumos_plur.png"" class=""stim-image"" alt=""wumos_plur.png"">
            <p class=""instr-text"">Which word did the Gulu use?</p>
          </div>
        </div>
      </div>","1","205","2.1.0","722213","","","forced_choice","stage2","wumos","true","","NoExposure","nm7eewa7kq","wumosdup","womusdup","1","true","56","Gulu","","","","","","","","","","","","",""
"html-button-response","640","
        <div class=""trial-box feedback-box feedback-correct"">
          <p>✓ Correct!</p>
          <p>The correct answer was: <strong>wumosdup</strong></p>
        </div>","0","206","2.1.0","722854","","","feedback","stage2","","","","NoExposure","nm7eewa7kq","","","","","","","","","","","","","","","","","","",""
"html-button-response","8006","
      <div class=""trial-box stage2-trial"">
        <div class=""stage2-pair"">
          <div class=""stage2-item"">
            <img src=""images/gulu_1.png"" class=""stim-image"" alt=""gulu_1.png"">
            <span class=""species-label gulu-label"">Gulu</span>
          </div>
          <div class=""stage2-item"">
            <img src=""images/sehilod_sing.png"" class=""stim-image"" alt=""sehilod_sing.png"">
            <div class=""word-display"">sehilod</div>
          </div>
        </div>
      </div>","0","207","2.1.0","730861","","","passive_exposure","stage2","sehilod","false","null","NoExposure","nm7eewa7kq","","","","","","Gulu","","","","","","","","","","","","",""
"html-button-response","1120","
      <div class=""trial-box stage2-trial"">
        <div class=""stage2-pair"">
          <div class=""stage2-item"">
            <img src=""images/gulu_2.png"" class=""stim-image"" alt=""gulu_2.png"">
            <span class=""species-label gulu-label"">Gulu</span>
          </div>
          <div class=""stage2-item"">
            <img src=""images/tugan_sing.png"" class=""stim-image"" alt=""tugan_sing.png"">
            <div class=""word-display"">tugan</div>
          </div>
        </div>
      </div>","0","208","2.1.0","731982","","","passive_exposure","stage2","tugan","false","null","NoExposure","nm7eewa7kq","","","","","","Gulu","","","","","","","","","","","","",""
"html-button-response","784","
      <div class=""trial-box stage2-trial"">
        <div class=""stage2-pair"">
          <div class=""stage2-item"">
            <img src=""images/norl_6.png"" class=""stim-image"" alt=""norl_6.png"">
            <span class=""species-label norl-label"">Norl</span>
          </div>
          <div class=""stage2-item"">
            <img src=""images/nuwik_sing.png"" class=""stim-image"" alt=""nuwik_sing.png"">
            <div class=""word-display"">nuwik</div>
          </div>
        </div>
      </div>","0","209","2.1.0","732766","","","passive_exposure","stage2","nuwik","false","null","NoExposure","nm7eewa7kq","","","","","","Norl","","","","","","","","","","","","",""
"html-button-response","791","
      <div class=""trial-box stage2-trial"">
        <div class=""stage2-pair"">
          <div class=""stage2-item"">
            <img src=""images/norl_1.png"" class=""stim-image"" alt=""norl_1.png"">
            <span class=""species-label norl-label"">Norl</span>
          </div>
          <div class=""stage2-item"">
            <img src=""images/firot_sing.png"" class=""stim-image"" alt=""firot_sing.png"">
            <div class=""word-display"">firot</div>
          </div>
        </div>
      </div>","0","210","2.1.0","733558","","","passive_exposure","stage2","firot","false","null","NoExposure","nm7eewa7kq","","","","","","Norl","","","","","","","","","","","","",""
"html-button-response","792","
      <div class=""trial-box stage2-trial"">
        <div class=""stage2-pair"">
          <div class=""stage2-item"">
            <img src=""images/gulu_3.png"" class=""stim-image"" alt=""gulu_3.png"">
            <span class=""species-label gulu-label"">Gulu</span>
          </div>
          <div class=""stage2-item"">
            <img src=""images/nesel_plur.png"" class=""stim-image"" alt=""nesel_plur.png"">
            <div class=""word-display"">neseldup</div>
          </div>
        </div>
      </div>","0","211","2.1.0","734351","","","passive_exposure","stage2","nesel","true","dup","NoExposure","nm7eewa7kq","","","","","","Gulu","","","","","","","","","","","","",""
"html-button-response","743","
      <div class=""trial-box stage2-trial"">
        <div class=""stage2-pair"">
          <div class=""stage2-item"">
            <img src=""images/gulu_4.png"" class=""stim-image"" alt=""gulu_4.png"">
            <span class=""species-label gulu-label"">Gulu</span>
          </div>
          <div class=""stage2-item"">
            <img src=""images/jemulok_plur.png"" class=""stim-image"" alt=""jemulok_plur.png"">
            <div class=""word-display"">jemulokdup</div>
          </div>
        </div>
      </div>","0","212","2.1.0","735095","","","passive_exposure","stage2","jemulok","true","dup","NoExposure","nm7eewa7kq","","","","","","Gulu","","","","","","","","","","","","",""
"html-button-response","737","
      <div class=""trial-box stage2-trial"">
        <div class=""stage2-pair"">
          <div class=""stage2-item"">
            <img src=""images/norl_4.png"" class=""stim-image"" alt=""norl_4.png"">
            <span class=""species-label norl-label"">Norl</span>
          </div>
          <div class=""stage2-item"">
            <img src=""images/takoles_plur.png"" class=""stim-image"" alt=""takoles_plur.png"">
            <div class=""word-display"">takolesnup</div>
          </div>
        </div>
      </div>","0","213","2.1.0","735832","","","passive_exposure","stage2","takoles","true","nup","NoExposure","nm7eewa7kq","","","","","","Norl","","","","","","","","","","","","",""
"html-button-response","644","
      <div class=""trial-box stage2-trial"">
        <div class=""stage2-pair"">
          <div class=""stage2-item"">
            <img src=""images/norl_5.png"" class=""stim-image"" alt=""norl_5.png"">
            <span class=""species-label norl-label"">Norl</span>
          </div>
          <div class=""stage2-item"">
            <img src=""images/maqub_plur.png"" class=""stim-image"" alt=""maqub_plur.png"">
            <div class=""word-display"">maqubnup</div>
          </div>
        </div>
      </div>","0","214","2.1.0","736477","","","passive_exposure","stage2","maqub","true","nup","NoExposure","nm7eewa7kq","","","","","","Norl","","","","","","","","","","","","",""
"html-button-response","2632","
      <div class=""trial-box stage2-trial"">
        <div class=""stage2-pair"">
          <div class=""stage2-item"">
            <img src=""images/gulu_4.png"" class=""stim-image"" alt=""gulu_4.png"">
            <span class=""species-label gulu-label"">Gulu</span>
          </div>
          <div class=""stage2-item"">
            <img src=""images/jemulok_plur.png"" class=""stim-image"" alt=""jemulok_plur.png"">
            <p class=""instr-text"">Which word did the Gulu use?</p>
          </div>
        </div>
      </div>","0","215","2.1.0","739110","","","forced_choice","stage2","jemulok","true","","NoExposure","nm7eewa7kq","jemulokdup","jelumokdup","0","true","57","Gulu","","","","","","","","","","","","",""
"html-button-response","674","
        <div class=""trial-box feedback-box feedback-correct"">
          <p>✓ Correct!</p>
          <p>The correct answer was: <strong>jemulokdup</strong></p>
        </div>","0","216","2.1.0","739785","","","feedback","stage2","","","","NoExposure","nm7eewa7kq","","","","","","","","","","","","","","","","","","",""
"html-button-response","1999","
      <div class=""trial-box stage2-trial"">
        <div class=""stage2-pair"">
          <div class=""stage2-item"">
            <img src=""images/norl_3.png"" class=""stim-image"" alt=""norl_3.png"">
            <span class=""species-label norl-label"">Norl</span>
          </div>
          <div class=""stage2-item"">
            <img src=""images/takoles_plur.png"" class=""stim-image"" alt=""takoles_plur.png"">
            <p class=""instr-text"">Which word did the Norl use?</p>
          </div>
        </div>
      </div>","0","217","2.1.0","741785","","","forced_choice","stage2","takoles","true","","NoExposure","nm7eewa7kq","takolesnup","katolesnup","0","true","58","Norl","","","","","","","","","","","","",""
"html-button-response","596","
        <div class=""trial-box feedback-box feedback-correct"">
          <p>✓ Correct!</p>
          <p>The correct answer was: <strong>takolesnup</strong></p>
        </div>","0","218","2.1.0","742383","","","feedback","stage2","","","","NoExposure","nm7eewa7kq","","","","","","","","","","","","","","","","","","",""
"html-button-response","1489","
      <div class=""trial-box stage2-trial"">
        <div class=""stage2-pair"">
          <div class=""stage2-item"">
            <img src=""images/gulu_1.png"" class=""stim-image"" alt=""gulu_1.png"">
            <span class=""species-label gulu-label"">Gulu</span>
          </div>
          <div class=""stage2-item"">
            <img src=""images/sehilod_sing.png"" class=""stim-image"" alt=""sehilod_sing.png"">
            <p class=""instr-text"">Which word did the Gulu use?</p>
          </div>
        </div>
      </div>","1","219","2.1.0","743872","","","forced_choice","stage2","sehilod","false","","NoExposure","nm7eewa7kq","sehilod","sihelod","1","true","59","Gulu","","","","","","","","","","","","",""
"html-button-response","580","
        <div class=""trial-box feedback-box feedback-correct"">
          <p>✓ Correct!</p>
          <p>The correct answer was: <strong>sehilod</strong></p>
        </div>","0","220","2.1.0","744453","","","feedback","stage2","","","","NoExposure","nm7eewa7kq","","","","","","","","","","","","","","","","","","",""
"html-button-response","2001","
      <div class=""trial-box stage2-trial"">
        <div class=""stage2-pair"">
          <div class=""stage2-item"">
            <img src=""images/norl_2.png"" class=""stim-image"" alt=""norl_2.png"">
            <span class=""species-label norl-label"">Norl</span>
          </div>
          <div class=""stage2-item"">
            <img src=""images/maqub_plur.png"" class=""stim-image"" alt=""maqub_plur.png"">
            <p class=""instr-text"">Which word did the Norl use?</p>
          </div>
        </div>
      </div>","0","221","2.1.0","746457","","","forced_choice","stage2","maqub","true","","NoExposure","nm7eewa7kq","maqubnup","mabuqnup","1","false","59","Norl","","","","","","","","","","","","",""
"html-button-response","681","
        <div class=""trial-box feedback-box feedback-incorrect"">
          <p>✗ Incorrect</p>
          <p>The correct answer was: <strong>maqubnup</strong></p>
        </div>","0","222","2.1.0","747139","","","feedback","stage2","","","","NoExposure","nm7eewa7kq","","","","","","","","","","","","","","","","","","",""
"html-button-response","2148","
      <div class=""trial-box stage2-trial"">
        <div class=""stage2-pair"">
          <div class=""stage2-item"">
            <img src=""images/gulu_5.png"" class=""stim-image"" alt=""gulu_5.png"">
            <span class=""species-label gulu-label"">Gulu</span>
          </div>
          <div class=""stage2-item"">
            <img src=""images/nesel_plur.png"" class=""stim-image"" alt=""nesel_plur.png"">
            <p class=""instr-text"">Which word did the Gulu use?</p>
          </div>
        </div>
